CTI3   

DESCRIPTOR "Argyll Calibration Target chart information 3"
ORIGINATOR "Argyll dispread"
CREATED "Thu Apr  7 15:15:29 2016"
DEVICE_CLASS "DISPLAY"
MULTI_DIM_STEPS "5"
COLOR_REP "RGB_XYZ"
TARGET_INSTRUMENT "X-Rite ColorMunki"
DISPLAY_TYPE_REFRESH "YES"
INSTRUMENT_TYPE_SPECTRAL "YES"
LUMINANCE_XYZ_CDM2 "319.515673 331.492394 386.771671"
NORMALIZED_TO_Y_100 "YES"

NUMBER_OF_FIELDS 7
BEGIN_DATA_FORMAT
SAMPLE_ID RGB_R RGB_G RGB_B XYZ_X XYZ_Y XYZ_Z 
END_DATA_FORMAT

NUMBER_OF_SETS 125
BEGIN_DATA
1 0.00000 0.00000 0.00000 0.121831 0.111556 0.254541 
2 25.00000 0.00000 0.00000 1.954453 1.041279 0.350201 
3 50.00000 0.00000 0.00000 8.079949 4.146401 0.653679 
4 75.00000 0.00000 0.00000 19.75612 10.06540 1.232354 
5 100.0000 0.00000 0.00000 38.42979 19.53238 2.230164 
6 100.0000 75.00000 100.0000 78.38001 64.70708 111.7233 
7 0.00000 25.00000 0.00000 1.974021 3.743040 0.738098 
8 50.00000 25.00000 0.00000 10.03764 7.883820 1.146365 
9 75.00000 25.00000 0.00000 21.73150 13.82546 1.736831 
10 100.0000 25.00000 0.00000 40.40285 23.35080 2.731508 
11 100.0000 50.00000 25.00000 47.74781 36.07034 9.548094 
12 25.00000 50.00000 0.00000 10.02530 16.81486 2.431505 
13 50.00000 50.00000 0.00000 16.23446 19.99965 2.746849 
14 75.00000 50.00000 0.00000 27.96167 25.99081 3.354550 
15 100.0000 50.00000 0.00000 46.65994 35.61820 4.357849 
16 100.0000 75.00000 25.00000 59.32212 58.76793 12.56318 
17 0.00000 50.00000 0.00000 8.083200 15.72308 2.316883 
18 50.00000 75.00000 0.00000 27.81167 42.66571 5.755509 
19 75.00000 75.00000 0.00000 39.53495 48.64902 6.343952 
20 100.0000 75.00000 0.00000 58.23219 58.29841 7.373337 
21 25.00000 75.00000 0.00000 21.58014 39.45729 5.445340 
22 25.00000 100.0000 0.00000 39.86866 75.33948 10.37576 
23 50.00000 100.0000 0.00000 46.14820 78.52897 10.68211 
24 75.00000 100.0000 0.00000 57.88026 84.48767 11.26442 
25 100.0000 100.0000 0.00000 76.41143 93.91850 12.26863 
26 0.00000 0.00000 25.00000 1.043879 0.392780 5.101828 
27 25.00000 0.00000 25.00000 2.912705 1.336619 5.255960 
28 50.00000 0.00000 25.00000 9.087812 4.468166 5.592197 
29 75.00000 0.00000 25.00000 20.77134 10.38781 6.206872 
30 100.0000 0.00000 25.00000 39.41933 19.84001 7.306067 
31 100.0000 0.00000 75.00000 48.64766 22.61872 55.83570 
32 75.00000 50.00000 75.00000 38.41743 29.37678 56.99012 
33 50.00000 25.00000 25.00000 11.07873 8.256778 6.162120 
34 75.00000 25.00000 25.00000 22.78098 14.20330 6.775109 
35 100.0000 25.00000 25.00000 41.40701 23.69136 7.867595 
36 100.0000 75.00000 50.00000 62.58918 59.77339 29.70921 
37 100.0000 75.00000 75.00000 68.63621 61.63602 61.38995 
38 50.00000 50.00000 25.00000 17.31347 20.43752 7.789828 
39 75.00000 50.00000 25.00000 29.03697 26.42378 8.415866 
40 25.00000 25.00000 0.00000 3.860392 4.736565 0.836773 
41 25.00000 50.00000 25.00000 11.06009 17.22847 7.446114 
42 25.00000 75.00000 25.00000 22.62344 39.88337 10.47851 
43 50.00000 75.00000 25.00000 28.89767 43.10079 10.82977 
44 75.00000 75.00000 25.00000 40.64562 49.11216 11.45608 
45 75.00000 75.00000 50.00000 43.89900 50.12992 28.39488 
46 0.00000 100.0000 0.00000 37.90391 74.27511 10.24841 
47 25.00000 100.0000 25.00000 40.89306 75.67008 15.51421 
48 50.00000 100.0000 25.00000 47.19993 78.86385 15.83508 
49 75.00000 100.0000 25.00000 58.93709 84.82437 16.45901 
50 100.0000 100.0000 25.00000 77.42308 94.22952 17.52426 
51 100.0000 100.0000 50.00000 80.71476 95.22585 34.81686 
52 25.00000 0.00000 50.00000 6.091446 2.302505 21.91006 
53 50.00000 0.00000 50.00000 12.28200 5.436615 22.29174 
54 75.00000 0.00000 50.00000 23.97651 11.36085 22.96313 
55 100.0000 0.00000 50.00000 42.62050 20.80267 24.23027 
56 100.0000 0.00000 100.0000 58.22875 25.44128 106.1145 
57 100.0000 50.00000 100.0000 66.67962 41.89626 108.4459 
58 50.00000 25.00000 50.00000 14.31069 9.254871 22.97954 
59 75.00000 25.00000 50.00000 26.01445 15.20163 23.63738 
60 100.0000 25.00000 50.00000 44.65390 24.69049 24.92815 
61 100.0000 25.00000 100.0000 60.29430 29.39652 106.7742 
62 25.00000 50.00000 50.00000 14.30598 18.26738 24.28147 
63 50.00000 50.00000 50.00000 20.58152 21.48327 24.67467 
64 75.00000 50.00000 50.00000 32.30718 27.46245 25.33758 
65 100.0000 50.00000 50.00000 50.98479 37.06410 26.63011 
66 100.0000 50.00000 75.00000 57.04160 38.93630 58.30118 
67 25.00000 75.00000 50.00000 25.88372 40.92852 27.37412 
68 50.00000 75.00000 50.00000 32.17607 44.14986 27.76261 
69 0.00000 75.00000 0.00000 19.62163 38.33692 5.321165 
70 0.00000 75.00000 25.00000 20.64540 38.78066 10.31569 
71 0.00000 100.0000 25.00000 38.91996 74.64342 15.34600 
72 0.00000 100.0000 50.00000 42.14393 75.62164 32.30025 
73 50.00000 100.0000 50.00000 50.49712 79.87825 32.96216 
74 75.00000 100.0000 50.00000 62.22325 85.82068 33.60919 
75 0.00000 0.00000 50.00000 4.186066 1.342625 21.64824 
76 0.00000 0.00000 75.00000 10.17611 3.144538 53.18397 
77 25.00000 0.00000 75.00000 12.10854 4.117088 53.51463 
78 50.00000 0.00000 75.00000 18.32313 7.259291 53.89283 
79 75.00000 0.00000 75.00000 30.04067 13.19250 54.60047 
80 25.00000 25.00000 25.00000 4.858365 5.090222 5.828153 
81 25.00000 25.00000 50.00000 8.067052 6.080405 22.61180 
82 25.00000 25.00000 75.00000 14.10899 7.922173 54.25304 
83 50.00000 25.00000 75.00000 20.37050 11.10351 54.62393 
84 75.00000 25.00000 75.00000 32.10558 17.06438 55.33385 
85 100.0000 25.00000 75.00000 50.68326 26.51001 56.61521 
86 0.00000 25.00000 25.00000 2.942225 4.083137 5.673670 
87 0.00000 50.00000 25.00000 9.098301 16.14773 7.279907 
88 50.00000 50.00000 75.00000 26.69101 23.40248 56.37043 
89 50.00000 50.00000 100.0000 36.39852 26.39778 106.7257 
90 50.00000 75.00000 100.0000 48.04335 49.15395 109.8269 
91 25.00000 50.00000 75.00000 20.38643 20.17450 55.98190 
92 25.00000 75.00000 75.00000 31.98164 42.86496 59.08794 
93 50.00000 75.00000 75.00000 38.30930 46.10460 59.49072 
94 75.00000 75.00000 75.00000 50.07901 52.11927 60.18835 
95 75.00000 75.00000 100.0000 59.82881 55.17856 110.4843 
96 25.00000 100.0000 50.00000 44.17722 76.70515 32.59983 
97 25.00000 100.0000 75.00000 50.22113 78.53156 64.32266 
98 50.00000 100.0000 75.00000 56.59570 81.76777 64.73361 
99 75.00000 100.0000 75.00000 68.34146 87.71599 65.40062 
100 100.0000 100.0000 75.00000 86.80899 97.10531 66.64327 
101 0.00000 0.00000 100.0000 19.80024 5.979430 103.8696 
102 25.00000 0.00000 100.0000 21.74046 6.956626 104.1006 
103 50.00000 0.00000 100.0000 28.01789 10.13572 104.4766 
104 75.00000 0.00000 100.0000 39.75051 16.08227 105.1320 
105 75.00000 50.00000 100.0000 48.18304 32.41294 107.4166 
106 0.00000 25.00000 100.0000 21.76665 9.776217 104.5253 
107 25.00000 25.00000 100.0000 23.76011 10.81872 104.7668 
108 50.00000 25.00000 100.0000 30.08179 14.03605 105.1233 
109 75.00000 25.00000 100.0000 41.82868 20.00148 105.7634 
110 0.00000 50.00000 75.00000 18.37566 19.07201 55.69985 
111 0.00000 50.00000 100.0000 28.03671 22.04478 106.2002 
112 25.00000 50.00000 100.0000 30.07724 23.16967 106.4422 
113 0.00000 25.00000 50.00000 6.127453 5.066655 22.37567 
114 0.00000 25.00000 75.00000 12.14899 6.899587 54.01516 
115 0.00000 75.00000 75.00000 29.96182 41.75547 58.81435 
116 0.00000 75.00000 100.0000 39.63420 44.75717 109.2776 
117 25.00000 75.00000 100.0000 41.68970 45.90609 109.5173 
118 0.00000 50.00000 50.00000 12.31454 17.17419 24.04509 
119 0.00000 75.00000 50.00000 23.89813 39.84862 27.14448 
120 0.00000 100.0000 75.00000 48.24599 77.52587 64.09724 
121 0.00000 100.0000 100.0000 57.80344 80.38335 114.3199 
122 25.00000 100.0000 100.0000 59.83168 81.44133 114.5508 
123 50.00000 100.0000 100.0000 66.23275 84.69065 114.9017 
124 75.00000 100.0000 100.0000 77.98794 90.64149 115.5495 
125 100.0000 100.0000 100.0000 96.38703 100.0000 116.6759 
END_DATA
